#Potential (V)    Frequency Hz 
0.49033          0.00000    
0.48529          1.52500
0.48032          0.00000
0.47531          0.00000
0.47031          0.00000
0.46533          1.52500
0.46033          0.00000
0.45529          0.00000
0.45032          0.00000
0.44531          0.00000
0.44031          0.00000
0.43533          0.00000
0.4303          0.00000
0.42529          0.00000
0.42032          0.00000
0.41531          0.00000
0.41031          0.00000
0.4053          0.00000
0.4003          -1.52500
0.39532          -1.52500
0.39032          0.00000
0.38531          0.00000
0.38031          0.00000
0.37531          0.00000
0.3703          0.00000
0.36533          0.00000
0.36032          0.00000
0.35532          0.00000
0.35031          -1.52500
0.34531          0.00000
0.34033          -1.52500
0.33533          0.00000
0.33032          0.00000
0.32532          0.00000
0.32031          -1.52500
0.31531          -1.52500
0.31033          -1.52500
0.30533          0.00000
0.30032          -1.52500
0.29532          -1.52500
0.29031          -1.52500
0.28531          -1.52500
0.28033          -1.52500
0.27533          -1.52500
0.27032          -3.05000
0.26532          -3.05000
0.26031          -1.52500
0.25531          -1.52500
0.25034          -3.05000
0.24533          -3.05000
0.24033          -3.05000
0.23532          -3.05000
0.23035          -3.05000
0.22534          -3.05000
0.22034          -3.05000
0.21536          -3.05000
0.21033          -3.05000
0.20532          -3.05000
0.20035          -3.05000
0.19534          -3.05000
0.19034          -3.05000
0.18536          -3.05000
0.18036          -4.58000
0.17532          -4.58000
0.17035          -4.58000
0.16534          -4.58000
0.16034          -4.58000
0.15533          -4.58000
0.15033          -4.58000
0.14536          -6.10500
0.14035          -6.10500
0.13535          -6.10500
0.13034          -6.10500
0.12534          -6.10500
0.12033          -6.10500
0.11536          -7.63000
0.11035          -7.63000
0.10535          -7.63000
0.10034          -7.63000
0.09534          -7.63000
0.09036          -7.63000
0.08536          -7.63000
0.08035          -9.15500
0.07535          -10.68000
0.07034          -10.68000
0.06534          -10.68000
0.06036          -10.68000
0.05536          -10.68000
0.05035          -10.68000
0.04534          -10.68000
0.04034          -10.68000
0.03535          -12.21000
0.03035          -12.21000
0.02535          -12.21000
0.02036          -12.21000
0.01536          -12.21000
0.01036          -13.73500
0.00536          -15.26000
3.69E-04          -15.26000
-0.00463          -15.26000
-0.00963          -15.26000
-0.01462          -16.78500
-0.01962          -16.78500
-0.02462          -16.78500
-0.02961          -16.78500
-0.03461          -16.78500
-0.0396          -18.31000
-0.0446          -18.31000
-0.04959          -18.31000
-0.05463          -18.31000
-0.05963          -18.31000
-0.06464          -19.83500
-0.06964          -19.83500
-0.07462          -21.36500
-0.07962          -21.36500
-0.08463          -21.36500
-0.08963          -21.36500
-0.0946          -22.89000
-0.09961          -22.89000
-0.10461          -22.89000
-0.10962          -22.89000
-0.11462          -24.41500
-0.11963          -24.41500
-0.12463          -25.94000
-0.12961          -25.94000
-0.13461          -25.94000
-0.13962          -27.46500
-0.14462          -28.99000
-0.1496          -28.99000
-0.1546          -30.52000
-0.15961          -30.52000
-0.16461          -30.52000
-0.16962          -30.52000
-0.17459          -32.04500
-0.1796          -33.57000
-0.1846          -35.09500
-0.18961          -35.09500
-0.19461          -36.62000
-0.19962          -36.62000
-0.20459          -38.15000
-0.20959          -38.15000
-0.2146          -38.15000
-0.2196          -38.15000
-0.22461          -41.20000
-0.22958          -41.20000
-0.23459          -41.20000
-0.23959          -41.20000
-0.2446          -42.72500
-0.2496          -42.72500
-0.25458          -44.25000
-0.25958          -44.25000
-0.26459          -45.77500
-0.26959          -45.77500
-0.27457          -45.77500
-0.2796          -47.30500
-0.28458          -48.83000
-0.28958          -48.83000
-0.29459          -48.83000
-0.29956          -48.83000
-0.30457          -50.35500
-0.30957          -50.35500
-0.31458          -51.88000
-0.31958          -51.88000
-0.32459          -51.88000
-0.32956          -53.40500
-0.33459          -53.40500
-0.33957          -53.40500
-0.34457          -54.93000
-0.34958          -54.93000
-0.35458          -56.46000
-0.35956          -56.46000
-0.36456          -56.46000
-0.36957          -56.46000
-0.37457          -57.98500
-0.37955          -57.98500
-0.38455          -57.98500
-0.38956          -57.98500
-0.39456          -59.51000
-0.39957          -59.51000
-0.40457          -59.51000
-0.40955          -59.51000
-0.41455          -61.03500
-0.41956          -62.56000
-0.42456          -61.03500
-0.42957          -62.56000
-0.43457          -62.56000
-0.43954          -64.08500
-0.44455          -64.08500
-0.44955          -64.08500
-0.45456          -64.08500
-0.45956          -65.61500
-0.46454          -65.61500
-0.46954          -65.61500
-0.47455          -65.61500
-0.47952          -65.61500
-0.48453          -65.61500
-0.48953          -67.14000
-0.49454          -67.14000
-0.49927          -68.66500
-0.49579          -68.66500
-0.49078          -68.66500
-0.48578          -68.66500
-0.48077          -68.66500
-0.4758          -68.66500
-0.47076          -70.19000
-0.46579          -70.19000
-0.46078          -70.19000
-0.45578          -71.71500
-0.45078          -73.24500
-0.44577          -73.24500
-0.44077          -73.24500
-0.43576          -73.24500
-0.43076          -73.24500
-0.42575          -73.24500
-0.42078          -73.24500
-0.41574          -73.24500
-0.41077          -74.77000
-0.40576          -74.77000
-0.40076          -76.29500
-0.39575          -76.29500
-0.39075          -76.29500
-0.38574          -76.29500
-0.38074          -77.82000
-0.37573          -76.29500
-0.37076          -76.29500
-0.36575          -77.82000
-0.36075          -77.82000
-0.35574          -77.82000
-0.35074          -77.82000
-0.34573          -79.34500
-0.34076          -79.34500
-0.33575          -79.34500
-0.33075          -79.34500
-0.32574          -79.34500
-0.32074          -80.87000
-0.31573          -80.87000
-0.31073          -82.40000
-0.30573          -82.40000
-0.30075          -82.40000
-0.29575          -82.40000
-0.29074          -83.92500
-0.28574          -83.92500
-0.28073          -82.40000
-0.27573          -82.40000
-0.27072          -85.45000
-0.26572          -85.45000
-0.26071          -85.45000
-0.25571          -85.45000
-0.2507          -85.45000
-0.24573          -86.97500
-0.24072          -86.97500
-0.23572          -86.97500
-0.23071          -86.97500
-0.22574          -86.97500
-0.22073          -88.50000
-0.21573          -88.50000
-0.21072          -86.97500
-0.20572          -86.97500
-0.20071          -88.50000
-0.19571          -88.50000
-0.1907          -88.50000
-0.18573          -88.50000
-0.18073          -90.02500
-0.17572          -90.02500
-0.17072          -90.02500
-0.16571          -90.02500
-0.16071          -91.55500
-0.15573          -91.55500
-0.15073          -91.55500
-0.14572          -91.55500
-0.14072          -91.55500
-0.13571          -91.55500
-0.13071          -91.55500
-0.1257          -91.55500
-0.12073          -93.08000
-0.11572          -93.08000
-0.11072          -93.08000
-0.10571          -91.55500
-0.10071          -91.55500
-0.0957          -93.08000
-0.09073          -93.08000
-0.08572          -93.08000
-0.08072          -91.55500
-0.07571          -91.55500
-0.07071          -91.55500
-0.0657          -91.55500
-0.06073          -91.55500
-0.05569          -91.55500
-0.05072          -88.50000
-0.04568          -88.50000
-0.04069          -88.50000
-0.03569          -88.50000
-0.03069          -86.97500
-0.0257          -86.97500
-0.0207          -86.97500
-0.0157          -86.97500
-0.0107          -83.92500
-0.0057          -83.92500
-7.05E-04          -80.87000
0.00429          -80.87000
0.00929          -79.34500
0.01429          -79.34500
0.01929          -76.29500
0.02429          -76.29500
0.02928          -74.77000
0.03428          -73.24500
0.03928          -70.19000
0.04427          -70.19000
0.04927          -68.66500
0.05429          -65.61500
0.0593          -64.08500
0.0643          -62.56000
0.06931          -61.03500
0.07428          -57.98500
0.07928          -56.46000
0.08429          -53.40500
0.08929          -51.88000
0.0943          -48.83000
0.0993          -47.30500
0.10431          -45.77500
0.10931          -44.25000
0.11432          -38.15000
0.11929          -38.15000
0.12433          -35.09500
0.1293          -33.57000
0.13431          -30.52000
0.13931          -30.52000
0.14432          -25.94000
0.14932          -25.94000
0.15433          -22.89000
0.1593          -22.89000
0.16431          -18.31000
0.16931          -18.31000
0.17432          -18.31000
0.17932          -18.31000
0.18433          -16.78500
0.1893          -16.78500
0.19431          -15.26000
0.19931          -15.26000
0.20432          -15.26000
0.20932          -15.26000
0.21432          -12.21000
0.2193          -12.21000
0.2243          -12.21000
0.22931          -12.21000
0.23431          -12.21000
0.23932          -12.21000
0.24432          -10.68000
0.24933          -10.68000
0.2543          -10.68000
0.25931          -10.68000
0.26431          -10.68000
0.26932          -10.68000
0.27429          -9.15500
0.2793          -9.15500
0.2843          -9.15500
0.28931          -7.63000
0.29431          -7.63000
0.29929          -7.63000
0.30432          -7.63000
0.30933          -7.63000
0.3143          -6.10500
0.31931          -7.63000
0.32431          -6.10500
0.32932          -6.10500
0.33432          -6.10500
0.33929          -6.10500
0.3443          -6.10500
0.3493          -6.10500
0.35431          -4.58000
0.35931          -4.58000
0.36432          -4.58000
0.36929          -4.58000
0.37433          -4.58000
0.3793          -4.58000
0.38431          -15.26000
0.38931          -15.26000
0.39432          -4.58000
0.39929          -6.10500
0.40433          -4.58000
0.4093          -4.58000
0.41431          -4.58000
0.41931          -4.58000
0.42432          -3.05000
0.42932          -3.05000
0.43433          -3.05000
0.4393          -3.05000
0.44431          -3.05000
0.44931          -3.05000
0.45432          -3.05000
0.45932          -3.05000
0.46432          -1.52500
0.4693          -1.52500
0.47433          -1.52500
0.47931          -1.52500
0.48431          -3.05000
0.48932          -3.05000
0.49432          0.00000
